Folder: Lab_Avancado_III/Grupo 8 03-10-2023/FE3O4 - FTIR

Note: README.md
# Lab_Avancado_III

File: FE3O4 - SECO1.txt
##TITLE=No Description
##DATA TYPE=INFRARED SPECTRUM
##XUNITS=1/CM
##YUNITS=%T
399,452061  	26,514635
412,383962  	26,997522
425,315863  	31,072604
438,247765  	34,093269
451,179666  	35,809981
464,111567  	39,321760
477,043469  	41,849303
489,975370  	44,124955
502,907271  	45,813796
515,839172  	46,627079
528,771074  	47,273953
541,702975  	47,162673
554,634876  	46,680233
567,566777  	46,961048
580,498679  	48,032653
593,430580  	49,969704
606,362481  	52,506078
619,294382  	55,054577
632,226284  	56,959612
645,158185  	59,435083
658,090086  	61,993769
671,021987  	64,131779
683,953889  	66,061304
696,885790  	67,810237
709,817691  	70,434595
722,749592  	73,569452
735,681494  	76,850728
748,613395  	79,908012
761,545296  	82,102965
774,477197  	83,119922
787,409099  	83,518866
800,341000  	83,763329
813,272901  	84,027451
826,204802  	84,312081
839,136704  	84,320839
852,068605  	84,251062
865,000506  	84,006921
877,932407  	83,805299
890,864309  	83,617555
903,796210  	83,331613
916,728111  	83,361805
929,660012  	83,434946
942,591914  	83,494059
955,523815  	83,822643
968,455716  	84,078442
981,387617  	84,506134
994,319519  	85,399344
1007,251420  	86,070926
1020,183321  	86,219197
1033,115222  	85,840270
1046,047124  	85,675980
1058,979025  	86,357127
1071,910926  	87,626660
1084,842827  	88,615715
1097,774729  	89,288982
1110,706630  	89,547598
1123,638531  	89,657402
1136,570432  	91,134879
1149,502334  	92,591303
1162,434235  	93,475285
1175,366136  	94,250708
1188,298038  	95,042741
1201,229939  	95,892488
1214,161840  	96,755751
1227,093741  	97,438947
1240,025643  	98,015357
1252,957544  	98,358057
1265,889445  	98,539566
1278,821346  	98,850484
1291,753248  	98,842158
1304,685149  	98,774290
1317,617050  	98,697157
1330,548951  	98,751395
1343,480853  	98,602572
1356,412754  	98,380858
1369,344655  	97,933168
1382,276556  	97,491763
1395,208458  	97,555983
1408,140359  	97,417676
1421,072260  	96,776596
1434,004161  	96,068722
1446,936063  	96,435027
1459,867964  	96,969739
1472,799865  	97,468279
1485,731766  	97,915428
1498,663668  	97,865411
1511,595569  	97,444784
1524,527470  	97,031307
1537,459371  	96,855172
1550,391273  	96,602060
1563,323174  	96,334610
1576,255075  	96,140601
1589,186976  	95,304111
1602,118878  	94,428864
1615,050779  	92,838317
1627,982680  	91,615504
1640,914581  	91,079233
1653,846483  	90,839936
1666,778384  	93,579000
1679,710285  	96,084625
1692,642186  	97,406176
1705,574088  	98,047617
1718,505989  	98,745568
1731,437890  	99,048761
1744,369791  	99,148947
1757,301693  	99,251384
1770,233594  	99,325765
1783,165495  	99,411587
1796,097396  	99,337029
1809,029298  	99,485679
1821,961199  	99,613637
1834,893100  	99,523775
1847,825001  	99,446793
1860,756903  	99,509411
1873,688804  	99,484549
1886,620705  	99,577141
1899,552607  	99,592471
1912,484508  	99,567501
1925,416409  	99,606323
1938,348310  	99,512872
1951,280212  	99,913804
1964,212113  	99,999800
1977,144014  	99,823349
1990,075915  	99,583649
2003,007817  	99,919403
2015,939718  	100,018718
2028,871619  	99,798994
2041,803520  	99,344463
2054,735422  	99,556420
2067,667323  	99,403609
2080,599224  	99,484249
2093,531125  	99,232471
2106,463027  	99,456990
2119,394928  	99,488855
2132,326829  	99,680596
2145,258730  	99,905259
2158,190632  	99,677599
2171,122533  	99,090563
2184,054434  	99,416430
2196,986335  	99,296816
2209,918237  	99,577840
2222,850138  	99,660596
2235,782039  	99,403238
2248,713940  	99,603246
2261,645842  	99,286361
2274,577743  	99,143418
2287,509644  	99,314735
2300,441545  	99,587927
2313,373447  	99,713505
2326,305348  	99,932920
2339,237249  	99,746262
2352,169150  	99,930994
2365,101052  	99,040674
2378,032953  	99,223776
2390,964854  	99,597368
2403,896755  	99,660899
2416,828657  	99,501898
2429,760558  	99,538162
2442,692459  	99,574207
2455,624360  	99,463390
2468,556262  	99,435594
2481,488163  	99,319745
2494,420064  	99,352236
2507,351965  	99,254842
2520,283867  	99,312651
2533,215768  	99,224344
2546,147669  	99,161358
2559,079570  	99,156155
2572,011472  	99,086394
2584,943373  	98,967634
2597,875274  	98,880207
2610,807176  	98,720819
2623,739077  	98,650449
2636,670978  	98,543382
2649,602879  	98,436004
2662,534781  	98,426747
2675,466682  	98,360263
2688,398583  	98,194216
2701,330484  	98,071306
2714,262386  	97,907779
2727,194287  	97,748813
2740,126188  	97,553116
2753,058089  	97,355182
2765,989991  	97,160123
2778,921892  	96,950682
2791,853793  	96,756052
2804,785694  	96,554326
2817,717596  	96,211453
2830,649497  	95,933332
2843,581398  	95,645240
2856,513299  	95,249363
2869,445201  	94,936782
2882,377102  	94,649454
2895,309003  	94,383053
2908,240904  	94,045861
2921,172806  	93,601981
2934,104707  	93,179583
2947,036608  	92,978445
2959,968509  	92,533831
2972,900411  	92,261333
2985,832312  	92,149465
2998,764213  	91,971132
3011,696114  	91,528054
3024,628016  	91,156820
3037,559917  	90,720636
3050,491818  	90,275434
3063,423719  	89,902811
3076,355621  	89,472270
3089,287522  	89,073491
3102,219423  	88,732292
3115,151324  	88,248623
3128,083226  	87,827266
3141,015127  	87,394242
3153,947028  	86,898631
3166,878929  	86,450866
3179,810831  	86,078703
3192,742732  	85,625399
3205,674633  	85,299225
3218,606534  	85,080176
3231,538436  	84,809268
3244,470337  	84,642582
3257,402238  	84,530695
3270,334139  	84,292269
3283,266041  	84,277912
3296,197942  	84,214474
3309,129843  	84,041312
3322,061745  	83,940756
3334,993646  	83,893350
3347,925547  	83,786226
3360,857448  	83,860934
3373,789350  	84,104242
3386,721251  	84,230119
3399,653152  	84,651216
3412,585053  	85,139436
3425,516955  	85,752277
3438,448856  	86,340231
3451,380757  	87,134466
3464,312658  	87,810573
3477,244560  	88,748415
3490,176461  	89,654668
3503,108362  	90,457502
3516,040263  	91,526744
3528,972165  	92,465794
3541,904066  	93,535561
3554,835967  	94,621227
3567,767868  	95,412865
3580,699770  	96,713919
3593,631671  	97,732556
3606,563572  	98,731576
3619,495473  	99,534190
3632,427375  	100,356491
3645,359276  	101,186068
3658,291177  	101,740884
3671,223078  	102,296507
3684,154980  	102,614546
3697,086881  	102,812915
3710,018782  	102,880845
3722,950683  	103,171802
3735,882585  	103,095459
3748,814486  	102,969121
3761,746387  	103,097563
3774,678288  	103,192858
3787,610190  	103,376107
3800,542091  	103,513642
3813,473992  	103,385753
3826,405893  	103,126878
3839,337795  	103,182976
3852,269696  	103,161130
3865,201597  	103,303494
3878,133498  	103,165893
3891,065400  	103,194015
3903,997301  	103,089459
3916,929202  	103,334354
3929,861103  	103,330051
3942,793005  	103,314543
3955,724906  	103,391088
3968,656807  	103,453402
3981,588708  	103,475266
3994,520610  	103,491061
4000,268121  	103,535237