Folder: Lab_Avancado_III/Grupo 8 03-10-2023/MoS2_Isa_FTIR

Note: README.md
# Lab_Avancado_III

File: MoS2_IPGR_FTIR_1.txt
##TITLE=No Description
##DATA TYPE=INFRARED SPECTRUM
##XUNITS=1/CM
##YUNITS=%T
399.452  	89.1917
412.384  	86.3475
425.316  	81.1722
438.248  	85.5451
451.18  	85.4961
464.112  	86.207
477.043  	84.12
489.975  	80.8005
502.907  	84.722
515.839  	85.4324
528.771  	84.7037
541.703  	84.1982
554.635  	83.2173
567.567  	82.2858
580.499  	81.5622
593.431  	80.6369
606.362  	80.2243
619.294  	79.7151
632.226  	79.4173
645.158  	79.4614
658.09  	80.0228
671.022  	80.7164
683.954  	81.5905
696.886  	82.6957
709.818  	83.9039
722.75  	85.1027
735.681  	86.4096
748.613  	87.6001
761.545  	88.7954
774.477  	89.7851
787.409  	90.7525
800.341  	91.0456
813.273  	74.2583
826.205  	89.986
839.137  	93.4529
852.069  	94.4148
865.001  	95.0419
877.932  	95.3036
890.864  	95.401
903.796  	95.1097
916.728  	93.4387
929.66  	88.9559
942.592  	66.2514
955.524  	53.9769
968.456  	90.962
981.388  	94.981
994.32  	96.1417
1007.25  	96.328
1020.18  	96.3712
1033.12  	96.2137
1046.05  	95.626
1058.98  	94.4082
1071.91  	92.0851
1084.84  	87.5495
1097.77  	75.1129
1110.71  	68.5513
1123.64  	65.0199
1136.57  	72.104
1149.5  	76.4401
1162.43  	67.0631
1175.37  	90.438
1188.3  	94.1921
1201.23  	95.468
1214.16  	95.5262
1227.09  	95.098
1240.03  	94.3071
1252.96  	93.2231
1265.89  	92.3183
1278.82  	89.8705
1291.75  	84.5872
1304.69  	80.7132
1317.62  	82.9286
1330.55  	88.0526
1343.48  	85.4864
1356.41  	88.7206
1369.34  	76.79
1382.28  	74.0955
1395.21  	86.385
1408.14  	85.7219
1421.07  	88.304
1434  	90.5508
1446.94  	91.3606
1459.87  	86.6759
1472.8  	87.4346
1485.73  	93.5186
1498.66  	95.4144
1511.6  	96.455
1524.53  	96.9632
1537.46  	97.3596
1550.39  	97.5555
1563.32  	97.8004
1576.26  	97.9443
1589.19  	97.8899
1602.12  	97.8037
1615.05  	97.6616
1627.98  	97.2251
1640.91  	96.7621
1653.85  	96.6038
1666.78  	96.9599
1679.71  	97.2995
1692.64  	97.8044
1705.57  	98.0946
1718.51  	98.1486
1731.44  	98.2427
1744.37  	98.2488
1757.3  	98.0699
1770.23  	98.002
1783.17  	98.4133
1796.1  	98.5817
1809.03  	98.626
1821.96  	98.7144
1834.89  	98.6795
1847.83  	98.7458
1860.76  	98.7348
1873.69  	98.7824
1886.62  	98.8116
1899.55  	98.7711
1912.48  	98.9261
1925.42  	98.8982
1938.35  	98.8011
1951.28  	98.8361
1964.21  	99.1512
1977.14  	99.4421
1990.08  	99.0674
2003.01  	99.1296
2015.94  	99.6783
2028.87  	99.4024
2041.8  	99.4719
2054.74  	99.1683
2067.67  	99.0816
2080.6  	98.9666
2093.53  	99.0673
2106.46  	98.9675
2119.39  	98.7142
2132.33  	98.8927
2145.26  	99.053
2158.19  	99.7346
2171.12  	99.2251
2184.05  	99.1001
2196.99  	98.977
2209.92  	99.2276
2222.85  	98.7962
2235.78  	99.1837
2248.71  	99.1266
2261.65  	99.0333
2274.58  	98.8996
2287.51  	98.7603
2300.44  	98.5586
2313.37  	98.3167
2326.31  	98.1876
2339.24  	98.3628
2352.17  	98.243
2365.1  	98.4038
2378.03  	98.4956
2390.96  	98.5407
2403.9  	98.3614
2416.83  	98.4232
2429.76  	98.557
2442.69  	98.6355
2455.62  	98.6111
2468.56  	98.4904
2481.49  	98.4682
2494.42  	98.4252
2507.35  	98.3045
2520.28  	98.2185
2533.22  	98.1983
2546.15  	98.3436
2559.08  	98.2433
2572.01  	98.0036
2584.94  	97.9442
2597.88  	98.0194
2610.81  	98.0158
2623.74  	98.0073
2636.67  	97.8909
2649.6  	97.427
2662.53  	97.1067
2675.47  	97.6165
2688.4  	97.557
2701.33  	97.2296
2714.26  	97.0621
2727.19  	96.9832
2740.13  	97.1657
2753.06  	97.1496
2765.99  	96.9526
2778.92  	96.7169
2791.85  	96.5013
2804.79  	96.1841
2817.72  	95.716
2830.65  	95.1823
2843.58  	94.3093
2856.51  	92.3431
2869.45  	89.5518
2882.38  	86.7431
2895.31  	87.8791
2908.24  	88.8749
2921.17  	88.2737
2934.1  	86.9566
2947.04  	88.8466
2959.97  	80.4389
2972.9  	63.615
2985.83  	85.6221
2998.76  	93.0156
3011.7  	95.8775
3024.63  	96.6941
3037.56  	96.7704
3050.49  	96.7528
3063.42  	96.5655
3076.36  	96.2759
3089.29  	95.9786
3102.22  	95.4745
3115.15  	94.9509
3128.08  	94.293
3141.02  	93.6273
3153.95  	92.6941
3166.88  	91.707
3179.81  	90.538
3192.74  	89.3166
3205.67  	88.0855
3218.61  	86.8236
3231.54  	85.4903
3244.47  	84.1257
3257.4  	82.9882
3270.33  	81.9124
3283.27  	80.8252
3296.2  	80.0227
3309.13  	79.3084
3322.06  	78.872
3334.99  	78.5775
3347.93  	78.6473
3360.86  	79.2294
3373.79  	79.9737
3386.72  	80.9782
3399.65  	82.2512
3412.59  	83.5355
3425.52  	85.0462
3438.45  	86.468
3451.38  	87.8835
3464.31  	89.2527
3477.24  	90.528
3490.18  	91.7258
3503.11  	92.6486
3516.04  	93.7518
3528.97  	94.5384
3541.9  	95.4171
3554.84  	96.0352
3567.77  	96.5344
3580.7  	97.1326
3593.63  	97.4509
3606.56  	97.6983
3619.5  	97.8357
3632.43  	97.9724
3645.36  	98.094
3658.29  	97.9804
3671.22  	98.1661
3684.15  	98.4603
3697.09  	98.7218
3710.02  	98.7849
3722.95  	98.85
3735.88  	98.9029
3748.81  	99.2468
3761.75  	99.078
3774.68  	99.1517
3787.61  	99.022
3800.54  	99.0942
3813.47  	99.0756
3826.41  	99.1271
3839.34  	98.7327
3852.27  	99.1287
3865.2  	98.9504
3878.13  	99.1244
3891.07  	99.1818
3904  	99.1034
3916.93  	99.0873
3929.86  	99.0754
3942.79  	99.1015
3955.72  	99.1415
3968.66  	99.0601
3981.59  	99.0608
3994.52  	99.0865
4000.27  	99.0371