Folder: Lab_Avancado_III/Grupo 8 03-10-2023/MoS2_Isa_Beneti_Fluo

Note: README.md
# Lab_Avancado_III

File: MoS2_IPGR_Fluo.txt
"Summary"
"[Software Information]"
"Software Name:","LabSolutions RF"
"Version:","1.17"
"[Data Information]"
"Data is:","Modified"
"Sample Name"
"Sample ID"
"Option"
"Analyst"
"Date/Time:","09/26/2023 04:04:59 PM"
"Comments"
"[Instrument Information]"
"Instrument Name:","RF-6000"
"Instrument Type:","RF-6000 Series"
"Model (S/N):","RF-6000 (A40245901959SA)"

"Parameter"
"[Measurement]"
"Spectrum Type:","Emission"
"EX Wavelength:","488.0 nm"
"EM Wavelength Start:","400.0 nm"
"EM Wavelength End:","800.0 nm"
"Data Interval:","1.0 nm"
"Scan Speed:","60000 nm/min"
"[Instrument]"
"EX Bandwidth:","5.0 nm"
"EM Bandwidth:","5.0 nm"
"Sensitivity:","Low"
"[Attachment]"
"Attachment:","None"
"[Auto Print]"
"Auto Print:","No"
"Report File:",""

"MoS2_IPGR_Fluo.fs2f - CorrectionData"
"Wavelength nm.","Intensity"
400,138.178
402,144.460
404,125.736
406,129.352
408,128.557
410,122.731
412,135.256
414,116.066
416,111.355
418,116.930
420,111.181
422,129.591
424,128.011
426,138.956
428,119.664
430,126.958
432,137.077
434,119.578
436,137.870
438,148.191
440,153.620
442,189.479
444,204.992
446,211.711
448,217.532
450,258.675
452,226.384
454,255.662
456,238.809
458,265.714
460,276.614
462,280.905
464,301.601
466,353.231
468,377.048
470,438.082
472,474.739
474,500.130
476,539.969
478,1592.342
480,23025.676
482,152222.621
484,548941.992
486,1188431.950
488,1746307.906
490,2009923.684
492,1778329.067
494,1195844.915
496,591947.963
498,208549.255
500,47777.773
502,4354.981
504,475.587
506,320.958
508,341.012
510,317.369
512,310.491
514,318.904
516,280.484
518,247.877
520,244.126
522,209.651
524,201.529
526,213.732
528,234.034
530,226.024
532,252.711
534,235.958
536,187.794
538,167.817
540,164.576
542,113.574
544,120.279
546,141.883
548,126.906
550,125.972
552,144.105
554,137.871
556,149.513
558,157.631
560,129.586
562,132.682
564,117.507
566,124.869
568,145.646
570,156.087
572,132.340
574,139.837
576,129.203
578,126.848
580,143.459
582,126.097
584,131.218
586,135.718
588,135.389
590,125.031
592,150.291
594,143.703
596,148.050
598,136.357
600,134.263
602,123.108
604,132.347
606,142.396
608,159.536
610,149.613
612,166.664
614,138.157
616,168.244
618,143.388
620,167.231
622,181.823
624,154.533
626,185.148
628,168.726
630,171.430
632,169.694
634,157.907
636,166.340
638,172.238
640,176.495
642,163.536
644,173.389
646,182.494
648,169.204
650,155.293
652,157.109
654,177.193
656,171.893
658,171.574
660,139.687
662,154.871
664,132.706
666,146.616
668,192.869
670,160.597
672,176.196
674,168.525
676,173.384
678,189.198
680,176.695
682,203.787
684,195.008
686,189.451
688,174.590
690,208.877
692,213.133
694,227.640
696,235.665
698,208.065
700,236.080
702,240.474
704,234.627
706,297.118
708,265.712
710,245.788
712,279.998
714,285.521
716,256.275
718,257.335
720,270.756
722,350.289
724,517.310
726,819.108
728,1256.927
730,1847.816
732,2561.671
734,2749.910
736,2382.991
738,2031.240
740,1500.296
742,958.254
744,717.191
746,502.532
748,374.793
750,430.885
752,389.124
754,444.261
756,442.732
758,443.219
760,465.517
762,414.446
764,424.995
766,524.116
768,467.555
770,483.590
772,513.523
774,493.140
776,539.050
778,512.434
780,499.562
782,629.860
784,614.015
786,637.181
788,577.663
790,658.123
792,557.473
794,710.836
796,662.436
798,749.144
800,679.630